unix_timestamp,acc_x,acc_y,acc_z,gyro_x,gyro_y,gyro_z
1784519641.161493,-0.0103,0.00936,-0.99747,0.00361,0.00419,0.0067
1784519641.3652627,-0.00919,0.00921,-0.99958,0.00341,0.00398,0.00702
1784519641.3709342,0.12718,0.01192,-0.99755,-0.00543,-3e-05,0.01851
1784519641.5727403,-0.19333,0.02314,-0.9962,0.0008,0.01399,-0.00749
1784519641.583584,0.13851,-0.00392,-1.00175,0.00313,0.0227,-0.00427
1784519641.7778516,-0.0375,0.01504,-0.99212,0.03218,-0.00052,-0.01883
1784519641.785618,-0.01851,0.0163,-0.99679,0.00045,0.01451,0.00596
1784519641.9676437,-0.11834,-0.0087,-0.99133,0.00633,0.00566,0.0107
1784519642.1876638,-0.0744,0.01467,-1.01442,-0.01783,-0.00078,0.02472
1784519642.3894365,0.00987,0.01551,-0.99003,0.01516,0.01063,-0.01947
1784519642.5970116,-0.09527,0.02232,-0.98879,0.01759,0.01684,-0.02356
1784519642.6039877,0.11537,0.00208,-1.0068,0.01146,0.00476,0.00097
1784519642.7992153,-0.10325,0.00456,-0.99395,0.00314,0.00785,0.02574
1784519642.8058314,0.03317,0.04578,-0.99434,0.01096,0.01136,-0.02565
1784519642.9707088,0.02519,-0.00367,-1.00168,0.01858,-0.02139,0.00993
1784519642.97781,-0.10579,0.02905,-0.99554,0.0082,0.00504,-0.001
1784519643.2045557,-0.08771,0.01342,-0.99751,0.0213,-0.02267,0.00801
1784519643.4129102,0.04343,0.02662,-0.99621,0.00694,0.00671,-0.01621
1784519643.4129102,0.01062,0.00424,-0.99447,0.00933,-0.00479,0.01069
1784519643.6167753,-0.0979,0.01669,-1.00048,0.00715,0.00143,-0.01765
1784519643.6167753,0.13864,0.02366,-1.00972,0.01009,0.00692,-0.00893
1784519643.8102515,-0.1327,0.0326,-0.98539,0.00846,-0.01349,0.03113
1784519643.9748247,0.0427,-0.01,-1.0049,-0.01066,-0.02516,0.0289
1784519644.015593,-0.07566,0.0087,-0.99572,0.00555,0.00932,0.00364
1784519644.227508,0.05057,0.01069,-1.01521,0.00937,-0.03192,0.0205
1784519644.4347272,0.08142,0.02356,-0.99699,0.00996,0.01285,0.03356
1784519644.632365,-0.04069,0.01041,-0.99705,0.00344,0.0103,-0.00034
1784519644.8416011,0.05073,-0.01093,-1.00024,-0.02318,0.02434,0.07134
1784519645.001637,-0.01517,0.03247,-0.99763,0.01309,-0.02535,-0.03015
1784519645.0174532,-0.03591,0.03239,-0.99713,-0.00374,0.01585,0.00249
1784519645.2530587,-0.0859,0.01702,-0.99822,-0.00941,0.00485,-0.0281
1784519645.4615505,0.03734,-0.01843,-0.99669,0.00791,0.01157,0.01772
1784519645.4615505,-0.03579,0.00396,-1.00245,-0.00545,-0.00279,0.04975
1784519645.6550376,-0.01833,0.04292,-0.9977,0.0035,0.01383,-0.04253
1784519645.6705165,0.02169,-0.01218,-1.00376,-0.01264,-0.02584,0.00805
1784519645.866305,-0.04736,0.03825,-0.99369,0.01071,0.00418,-0.03447
1784519645.8843539,-0.01504,-0.03158,-0.98591,0.01459,0.01303,0.03029
1784519645.9897165,-0.00439,0.01784,-0.99892,-0.00321,-0.01317,-0.01952
1784519646.0856445,-0.05853,-0.01247,-0.98783,0.00949,0.01431,0.03321
1784519646.2850637,0.04549,0.00578,-1.00037,0.01454,-0.0092,-0.01257
1784519646.4863753,0.03131,-0.00074,-0.99756,-0.00641,0.01757,0.08739
1784519646.4863753,-0.01978,0.00652,-0.99253,0.01672,0.01039,-0.07844
1784519646.6918085,-0.06197,0.02641,-0.98674,-0.00188,0.01817,0.03278
1784519646.6918085,0.02269,-0.03907,-0.99875,-0.00358,0.00105,0.02691
1784519646.888497,-0.07843,0.03697,-0.99357,0.00513,0.01597,-0.00972
1784519646.8998895,0.04655,-0.04627,-0.98617,0.00561,0.02802,0.01497
1784519646.9965358,-0.04927,0.05146,-1.00609,0.01052,-0.0185,-0.02898
1784519647.092641,-0.02401,-0.00921,-1.00322,-0.0041,0.01162,0.02531
1784519647.3025987,0.0564,0.01362,-1.0037,0.00315,0.0016,-0.01491
1784519647.3144267,-0.07383,0.03679,-0.99743,-0.00544,0.01248,-0.0247
1784519647.5089335,0.04655,0.02111,-0.99338,-0.0031,0.03128,-0.01699
1784519647.5109363,-0.02934,-0.02036,-0.98545,0.01854,0.0018,0.01621
1784519647.7146685,-0.0345,0.02704,-0.99999,0.01098,0.02256,-0.07772
1784519647.7146685,0.04289,-0.03179,-1.00929,-0.01061,-0.01671,0.05993
1784519647.9224546,-0.06957,0.02326,-0.99203,0.00869,0.0021,-0.00837
1784519647.9224546,0.01014,-0.05084,-0.99065,-0.00014,0.01532,0.01993
1784519648.0280254,0.00994,0.07749,-0.99405,0.00355,-0.00557,-0.02384
1784519648.1139314,-0.06195,-0.04208,-1.00467,0.01638,0.00162,0.01444
1784519648.333472,0.05022,0.05365,-0.99789,0.00526,0.00114,-0.05798
1784519648.333472,-0.07798,0.03242,-0.99756,0.01854,-0.00456,0.0008
1784519648.52651,0.05637,-4e-05,-0.99542,-0.01235,0.01633,0.02166
1784519648.5387576,-0.03874,0.02068,-0.99806,0.01938,-0.00053,-0.03488
1784519648.7357945,-0.0441,-0.04911,-0.99827,-0.02222,0.00516,0.01444
1784519648.747337,0.07109,0.04569,-1.00009,0.01131,0.0089,-0.00295
1784519648.939852,-0.11772,-0.03045,-0.98135,0.02093,0.00042,-0.0255
1784519648.939852,0.07538,0.0297,-0.99902,-0.00913,0.02463,0.03183
1784519649.024106,-0.07564,-0.01603,-1.00172,0.01119,-0.00879,-0.0233
1784519649.1431298,0.0269,0.02588,-0.99729,-0.0148,0.00974,0.0305
1784519649.3458593,0.02759,0.00746,-0.99407,0.00905,-0.01727,-0.01239
1784519649.5578523,0.06107,0.02249,-1.00086,0.00952,0.00619,0.03582
1784519649.5578523,-0.06657,-0.00589,-0.99945,0.00236,-0.01305,0.00736
1784519649.7625926,0.01179,0.01915,-0.98112,0.01209,-0.02344,-0.00887
1784519649.9610083,-0.09828,-0.02342,-0.99372,0.00636,0.01034,0.07799
1784519649.9610083,0.07488,0.02144,-0.99118,0.00185,-0.00299,-0.03338
1784519650.043385,-0.0612,0.00862,-0.99361,-0.01105,-0.01378,0.037
1784519650.1687837,-0.02197,-0.01726,-0.99485,0.00957,0.01456,0.03014
1784519650.377307,0.0135,-0.04252,-0.99826,-0.01812,-0.02501,-0.00321
1784519650.377307,-0.06486,0.05439,-0.99906,0.00433,0.00665,-0.02146
1784519650.5745742,-0.0362,0.0212,-0.98987,0.00626,-0.01122,0.00179
1784519650.780289,-0.04295,-0.05477,-0.99718,0.01262,0.01293,0.02589
1784519650.780289,0.03929,0.0456,-0.99636,0.00647,0.00798,-0.03586
1784519650.9827049,-0.06724,-0.03852,-0.99403,-0.01196,0.00983,0.11693
1784519650.9827049,-0.01176,-0.051,-0.99679,0.02356,0.01664,-0.00986
1784519651.0458257,0.00884,-0.02362,-0.97836,-0.01716,0.01157,-0.03297
1784519651.1890292,-0.04404,0.04691,-0.99858,-0.00463,0.00238,0.02706
1784519651.3963642,0.02459,-0.07136,-1.00626,0.00036,0.00047,0.03833
1784519651.3963642,-0.03815,0.04507,-0.98967,0.04515,0.00416,0.013
1784519651.6029656,-0.02102,-0.02006,-0.99046,-6e-05,0.02695,0.04126
1784519651.611167,0.00521,0.01449,-0.99678,0.00838,0.00557,-0.03269
1784519652.014449,-0.03981,0.06775,-0.99363,0.0153,0.00731,0.02396
1784519652.014449,-0.00299,-0.00907,-1.00637,-0.01427,0.00715,0.04589
1784519652.014449,-0.01941,0.00567,-0.99206,-0.00028,0.02589,-0.06049
1784519652.2132208,0.00839,0.03666,-1.00567,0.00897,-0.00932,-0.04361
1784519652.4154487,-0.02188,-0.03927,-0.98937,0.01672,0.00214,0.01465
1784519652.4154487,0.00578,0.01792,-0.99264,0.00252,0.00667,-0.00061
1784519652.6275594,-0.03448,0.00846,-0.99098,0.02039,0.00411,-0.04186
1784519652.8354573,-0.04815,0.01398,-1.02406,0.00202,-0.04748,0.0043
1784519652.8354573,-0.03556,-0.00668,-1.00061,-0.0076,0.01408,0.02278
1784519653.0291338,0.01715,0.02317,-1.00002,0.02619,-0.01049,-0.02325
1784519653.237159,0.00329,0.08415,-0.99497,0.01282,-0.01156,-0.06963
1784519653.44491,-0.03868,-0.00272,-0.99621,0.01511,0.00321,-0.00915
1784519653.44491,0.04187,0.04532,-1.00017,0.00576,0.01413,-0.0357
1784519653.6435075,-0.07339,-0.02408,-0.99982,0.00177,-0.00526,0.016
1784519653.6435075,0.02365,0.01226,-1.00009,0.00982,0.00663,0.00794
1784519653.867188,-0.00268,-0.00371,-0.99335,0.01254,0.0112,-0.00164
1784519654.0609932,-0.05496,-0.02804,-0.99625,0.03915,-0.00762,-0.01152
1784519654.259131,0.01812,0.02891,-1.02119,-0.01695,-0.01537,0.00192
1784519654.259131,-0.04853,-0.02125,-0.98666,0.01427,0.01703,0.03836
1784519654.4030726,0.00389,0.00035,-0.99137,0.02108,0.01488,-0.02765
1784519654.4275308,0.003,0.09052,-0.97759,0.01167,0.02411,-0.11838
1784519654.6781943,-0.02466,-0.0429,-1.00368,-0.01422,-0.00945,0.0622
1784519654.6781943,-0.02968,0.00496,-0.99955,0.01122,0.00348,0.003
1784519654.8825731,-0.00351,0.03437,-1.00472,0.03499,-0.02064,-0.06709
1784519655.0917628,0.04603,0.06188,-1.00195,-0.00637,0.00425,-0.02602
1784519655.281452,-0.07769,-0.0337,-0.99505,0.00874,0.01348,0.10225
1784519655.281452,-0.00573,-0.01219,-0.99053,0.00717,0.03502,-0.02989
1784519655.5059423,-0.04778,-0.02395,-0.99972,-0.00073,-0.00056,0.03297
1784519655.6984148,0.01131,0.00894,-1.00017,0.03495,-0.00331,0.03319
1784519655.9048603,-0.04528,-0.03734,-0.97928,0.00702,0.01461,-0.01466
1784519655.9048603,0.0325,0.0791,-1.00346,0.01577,0.00195,-0.06177
1784519656.0814729,-0.03247,-0.02988,-0.99496,0.00269,0.00186,0.04059
1784519656.0814729,0.00685,0.02366,-1.00508,0.01336,0.00365,-0.03595
1784519656.3084054,0.02042,0.01344,-1.01209,-0.00121,-0.02849,0.04511
1784519656.3084054,-0.08448,-0.03673,-1.00684,-0.02652,0.00768,0.08473
1784519656.5169206,0.04303,-0.00344,-0.99339,0.01554,0.0057,0.00391
1784519656.5169206,-0.04989,-0.01684,-0.99719,0.00187,0.00285,-0.01556
1784519656.7271938,-0.0008,0.04989,-0.99336,0.00736,0.02284,-0.01883
1784519656.7282844,0.04614,0.03185,-0.99947,-0.01424,0.00978,0.01101
1784519656.9205534,0.05627,0.04233,-0.99734,-0.00795,0.01379,-0.01623
1784519657.108914,-0.08543,-0.07475,-0.98472,0.00717,0.02827,0.10897
1784519657.110923,0.00355,0.04411,-0.99924,0.00433,0.00891,-0.03389
1784519657.335158,0.02447,0.00243,-0.98935,-0.00348,0.01216,0.06658
1784519657.54376,0.05879,0.03103,-1.00336,0.01731,0.00998,-0.0185
1784519657.54376,-0.09767,-0.03306,-0.96752,0.01281,0.00094,0.04694
1784519657.743424,-0.01811,0.02268,-0.94694,-0.02233,0.01131,0.05459
1784519657.942427,6e-05,0.03033,-0.95021,0.10531,0.05786,-0.04756
1784519657.9574697,-0.03326,-0.05915,-0.99906,0.01826,-0.00442,0.04877
1784519658.1020856,0.01269,0.0389,-0.99623,0.00973,-0.02852,-0.02659
1784519658.12799,-0.05314,-0.02047,-1.00144,0.0155,0.00859,0.04593
1784519658.3597,0.01875,-0.00517,-0.99791,0.0002,0.0244,0.03893
1784519658.3597,-0.04904,-0.00246,-0.99455,0.00797,0.01172,-0.02206
1784519658.5693276,-0.0266,-0.00331,-0.99518,0.0206,0.01912,0.00364
1784519658.5693276,0.01931,0.00574,-0.98512,0.00608,0.01845,0.01005
1784519658.7749634,-0.05526,0.04467,-1.00083,0.00883,0.00411,-0.05061
1784519658.7749634,0.02007,0.02607,-0.99643,-0.01438,0.01638,0.02941
1784519658.974658,-0.05263,-0.04341,-0.99534,0.00634,0.01192,0.03419
1784519658.974658,-0.04032,0.00534,-0.99063,0.00425,0.02193,-0.02762
1784519659.1138105,0.07887,0.04525,-0.99167,0.02068,0.0117,-0.02903
1784519659.1138105,-0.09068,0.02427,-0.99846,-0.02075,0.01775,0.00899
1784519659.381565,0.02133,-0.01083,-0.99743,0.00603,0.02042,0.02691
1784519659.5891824,-0.06809,-0.01959,-1.00236,-0.00032,-0.00927,0.00919
1784519659.7972493,-0.08067,0.06355,-0.9997,0.01071,0.01855,-0.06801
1784519659.7996356,0.0492,-0.02044,-1.01488,-0.04417,-0.01719,0.0133
1784519660.0022488,-0.06134,-0.01898,-0.99116,0.01487,-0.00714,0.03326
1784519660.0052311,-0.04196,0.03533,-1.00013,0.00191,0.01465,-0.03348
1784519660.1148403,-0.11258,0.00095,-0.99208,-0.00638,0.00924,-0.02759
1784519660.217432,0.03924,-0.01264,-0.9887,0.04311,0.01567,0.03496
1784519660.4026637,-0.01729,-0.02245,-0.99284,-0.01602,0.00241,0.05881
1784519660.4188578,-0.07536,0.00896,-0.99179,0.00121,0.02017,0.00437
1784519660.6202304,0.05578,-0.01373,-1.01579,0.03429,-0.00209,0.00614
1784519660.6202304,-0.13878,0.0518,-0.99539,0.01855,0.01013,0.02766
1784519660.8109853,-0.03117,0.04025,-0.99792,-0.00368,-0.03225,0.00698
1784519661.0251336,0.08042,0.08031,-1.0017,0.01797,-0.01154,-0.01465
1784519661.1207492,-0.0975,0.03467,-1.00824,0.02215,-0.01324,-0.0159
1784519661.2321115,0.01999,-0.05378,-1.00248,0.01202,0.00179,-0.02339
1784519661.4324641,-0.01103,0.04589,-1.00053,-0.01635,0.01688,-0.00935
1784519661.4400759,-0.07619,-0.01303,-0.98872,0.00731,0.01558,-0.02703
1784519661.6433074,0.04321,0.01219,-0.99641,0.01112,-0.00443,-0.03326
1784519661.6433074,-0.0884,0.05038,-0.98671,-0.04548,0.01422,0.03427
1784519661.8350718,0.00235,-0.08383,-0.99823,0.00936,0.02697,0.02235
1784519661.8510041,-0.06329,0.04189,-0.99291,-0.0046,-0.00969,0.0164
1784519662.0409274,-0.01029,0.01041,-0.99997,0.00601,0.01837,0.0332
1784519662.251891,-0.05082,0.03193,-0.98782,-0.01025,0.02327,0.00475
1784519662.2641773,0.00441,-0.01851,-0.99738,0.00776,0.01198,0.01186
1784519662.4563766,-0.10984,-0.05465,-0.99949,-0.00614,0.02015,0.02495
1784519662.4563766,0.01513,0.02869,-0.99528,-0.01112,0.01758,0.01299
1784519662.6619377,-0.0425,0.0333,-0.99594,0.011,0.00139,-0.00875
1784519662.8718412,-0.0047,-0.02271,-0.99813,-0.00109,0.00766,0.02286
1784519662.8853197,-0.07299,-0.03657,-0.99387,0.00292,0.01575,0.03057
1784519663.0762978,-0.01681,0.02657,-0.99898,0.03173,0.00769,-0.06279
1784519663.1672616,-0.02816,0.00701,-0.99933,-0.00251,0.01175,0.0679
1784519663.2803533,-0.00607,0.0049,-1.00077,0.00889,0.00652,0.02631
1784519663.4719737,-0.04873,-0.01939,-0.99688,0.00347,0.00279,0.00425
1784519663.6885955,-0.05129,0.03553,-0.99255,0.0038,0.00643,0.00349
1784519663.8940444,0.03842,-3e-05,-1.00088,0.00648,0.00039,-0.00767
1784519663.8940444,-0.0998,0.01661,-0.9942,0.006,0.00424,0.01378
1784519664.0991528,0.04993,0.00935,-0.99733,0.00316,-0.00397,0.021
1784519664.0991528,-0.04507,-0.00672,-0.99721,-0.00479,0.00796,0.0045
1784519664.3025355,0.04711,0.02857,-0.99914,0.00013,-0.00324,-0.0451
1784519664.5102978,0.00466,0.00527,-0.99785,-0.00034,-0.00207,-0.02524
1784519664.7086616,-0.00034,0.01146,-0.99858,0.00221,0.00091,0.00725
1784519664.7086616,0.00959,0.00548,-0.99819,0.00621,0.00109,0.0045
1784519664.9114516,-0.00449,0.00541,-0.99964,0.00696,0.00539,0.00607
1784519664.9114516,-0.01756,0.00814,-0.99749,0.00706,0.00299,0.00517
1784519665.0073383,-0.02047,0.00633,-0.99819,0.00537,0.00109,0.00555
